onset	duration	trial_type	rating
0.03	17.42	fixation_cross	n/a
17.45	3.01	instruction	n/a
20.46	20.06	control_moving_bars	n/a
40.52	4	rating	2
44.53	18.27	fixation_cross	n/a
62.8	3.01	instruction	n/a
65.81	20.06	watch_moving_bars	n/a
85.87	2.29	rating	3
88.16	19.75	fixation_cross	n/a
107.91	3	instruction	n/a
110.91	20.03	watch_static_bars	n/a
130.94	1.66	rating	4
132.6	19.38	fixation_cross	n/a
151.99	3.01	instruction	n/a
155	20.06	control_moving_bars	n/a
175.06	2.94	rating	3
178	19.89	fixation_cross	n/a
197.88	3.01	instruction	n/a
200.89	20.05	watch_moving_bars	n/a
220.94	4.88	rating	3
225.82	18.97	fixation_cross	n/a
244.79	3.01	fixation_cross	n/a
247.8	20.06	control_moving_bars	n/a
267.86	1.95	instruction	n/a
269.81	17.12	fixation_cross	n/a
286.93	3	fixation_cross	n/a
289.94	20.03	watch_static_bars	n/a
309.97	2.76	instruction	n/a
312.73	19.57	fixation_cross	n/a
332.3	3	fixation_cross	n/a
335.3	20.05	watch_moving_bars	n/a
355.35	0.91	instruction	n/a
356.26	19.81	fixation_cross	n/a
376.07	3.01	fixation_cross	n/a
379.08	20.06	watch_moving_bars	n/a
399.14	1.06	instruction	n/a
400.2	19.05	fixation_cross	n/a
419.25	3.01	fixation_cross	n/a
422.26	20.03	watch_static_bars	n/a
442.29	3.73	instruction	n/a
446.02	19.28	fixation_cross	n/a
465.3	3	fixation_cross	n/a
468.31	20.07	watch_moving_bars	n/a
488.37	1.15	instruction	n/a
489.52	19.23	fixation_cross	n/a
508.75	3.01	fixation_cross	n/a
511.76	20.05	control_moving_bars	n/a
531.8	2.13	instruction	n/a
533.93	18.18	fixation_cross	n/a
552.11	3.01	fixation_cross	n/a
555.12	20.03	watch_static_bars	n/a
575.15	5.32	instruction	n/a
580.47	18.96	fixation_cross	n/a
599.43	3.01	fixation_cross	n/a
602.44	20.03	watch_static_bars	n/a
622.47	3.31	instruction	n/a
625.78	17.52	fixation_cross	n/a
643.3	3	fixation_cross	n/a
646.31	20.05	control_moving_bars	n/a
666.35	2.83	instruction	n/a
